File: Data/clean_data.csv
Cement (component 1)(kg in a m^3 mixture),Blast Furnace Slag (component 2)(kg in a m^3 mixture),Fly Ash (component 3)(kg in a m^3 mixture),Water  (component 4)(kg in a m^3 mixture),Superplasticizer (component 5)(kg in a m^3 mixture),Coarse Aggregate  (component 6)(kg in a m^3 mixture),Fine Aggregate (component 7)(kg in a m^3 mixture),Age (day),"Concrete compressive strength(MPa, megapascals) ",water_cement_ratio
540.0,0.0,0.0,162.0,2.5,1055.0,676.0,28,61.8874,0.3
380.0,95.0,0.0,228.0,0.0,932.0,594.0,28,36.4478,0.6
475.0,0.0,0.0,228.0,0.0,932.0,594.0,28,39.2898,0.48
198.6,132.4,0.0,192.0,0.0,978.4,825.5,28,28.0217,0.966767
304.0,76.0,0.0,228.0,0.0,932.0,670.0,28,47.8138,0.75
139.6,209.4,0.0,192.0,0.0,1047.0,806.9,90,39.358,1.37536
139.6,209.4,0.0,192.0,0.0,1047.0,806.9,28,28.2375,1.37536
427.5,47.5,0.0,228.0,0.0,932.0,594.0,28,37.4275,0.533333
237.5,237.5,0.0,228.0,0.0,932.0,594.0,28,30.0798,0.96
475.0,0.0,0.0,228.0,0.0,932.0,594.0,90,42.229,0.48
427.5,47.5,0.0,228.0,0.0,932.0,594.0,90,41.543,0.533333
349.0,0.0,0.0,192.0,0.0,1047.0,806.9,3,15.0492,0.550143
380.0,95.0,0.0,228.0,0.0,932.0,594.0,7,32.8232,0.6
304.0,76.0,0.0,228.0,0.0,932.0,670.0,90,49.1851,0.75
198.6,132.4,0.0,192.0,0.0,978.4,825.5,7,14.6383,0.966767
332.5,142.5,0.0,228.0,0.0,932.0,594.0,28,33.019,0.685714
332.5,142.5,0.0,228.0,0.0,932.0,594.0,7,30.2756,0.685714
485.0,0.0,0.0,146.0,0.0,1120.0,800.0,28,71.9882,0.301031
313.3,262.2,0.0,175.5,8.6,1046.9,611.8,3,28.7994,0.560166
425.0,106.3,0.0,151.4,18.6,936.0,803.7,3,36.3009,0.356235
388.6,97.1,0.0,157.9,12.1,852.1,925.7,3,28.0961,0.40633
401.8,94.7,0.0,147.4,11.4,946.8,852.1,3,41.0997,0.366849
323.7,282.8,0.0,183.8,10.3,942.7,659.9,3,28.2961,0.56781
286.3,200.9,0.0,144.7,11.2,1004.6,803.7,3,24.4006,0.505414
389.9,189.0,0.0,145.9,22.0,944.7,755.8,3,40.5963,0.374199
374.0,189.2,0.0,170.1,10.1,926.1,756.7,7,46.2018,0.454813
425.0,106.3,0.0,153.5,16.5,852.1,887.1,7,49.201,0.361176
475.0,118.8,0.0,181.1,8.9,852.1,781.5,7,55.5993,0.381263
318.8,212.5,0.0,155.7,14.3,852.1,880.4,7,33.3982,0.488394
362.6,189.0,0.0,164.9,11.6,944.7,755.8,7,55.8958,0.454771
379.5,151.2,0.0,153.9,15.9,1134.3,605.0,7,47.0981,0.405534
439.0,177.0,0.0,186.0,11.1,884.9,707.9,7,56.0958,0.42369
362.6,189.0,0.0,164.9,11.6,944.7,755.8,7,22.8975,0.454771
374.0,189.2,0.0,170.1,10.1,926.1,756.7,28,61.0945,0.454813
425.0,106.3,0.0,153.5,16.5,852.1,887.1,28,60.2947,0.361176
475.0,118.8,0.0,181.1,8.9,852.1,781.5,28,68.2995,0.381263
318.8,212.5,0.0,155.7,14.3,852.1,880.4,28,55.4959,0.488394
362.6,189.0,0.0,164.9,11.6,944.7,755.8,28,71.2987,0.454771
379.5,151.2,0.0,153.9,15.9,1134.3,605.0,28,52.2002,0.405534
439.0,177.0,0.0,186.0,11.1,884.9,707.9,28,65.9966,0.42369
337.9,189.0,0.0,174.9,9.5,944.7,755.8,28,49.8974,0.517609
313.3,262.2,0.0,175.5,8.6,1046.9,611.8,56,64.9004,0.560166
425.0,106.3,0.0,151.4,18.6,936.0,803.7,56,64.9004,0.356235
388.6,97.1,0.0,157.9,12.1,852.1,925.7,56,55.1994,0.40633
401.8,94.7,0.0,147.4,11.4,946.8,852.1,56,73.6981,0.366849
286.3,200.9,0.0,144.7,11.2,1004.6,803.7,56,72.9948,0.505414
337.9,189.0,0.0,174.9,9.5,944.7,755.8,56,59.8948,0.517609
313.3,262.2,0.0,175.5,8.6,1046.9,611.8,91,66.5965,0.560166
425.0,106.3,0.0,151.4,18.6,936.0,803.7,91,66.6999,0.356235
388.6,97.1,0.0,157.9,12.1,852.1,925.7,91,57.5988,0.40633
401.8,94.7,0.0,147.4,11.4,946.8,852.1,91,75.4976,0.366849
286.3,200.9,0.0,144.7,11.2,1004.6,803.7,91,76.8007,0.505414
337.9,189.0,0.0,174.9,9.5,944.7,755.8,91,67.7962,0.517609
222.36,0.0,96.67,189.29,4.46,967.08,870.32,14,24.4488,0.851277
222.36,0.0,96.67,189.29,4.46,967.08,870.32,56,29.4475,0.851277
233.81,0.0,94.58,197.89,4.567,947.04,852.16,3,10.3835,0.846371
233.81,0.0,94.58,197.89,4.567,947.04,852.16,28,22.8354,0.846371
233.81,0.0,94.58,197.89,4.567,947.04,852.16,100,34.5565,0.846371
194.68,0.0,100.52,165.62,7.48,1006.4,905.9,14,24.9866,0.850729
194.68,0.0,100.52,165.62,7.48,1006.4,905.9,56,33.9636,0.850729
190.68,0.0,125.4,162.14,7.77,1090.0,804.01,3,15.0444,0.850325
190.68,0.0,125.4,162.14,7.77,1090.0,804.01,28,26.4,0.850325
190.68,0.0,125.4,162.14,7.77,1090.0,804.01,100,40.5688,0.850325
212.07,0.0,121.62,180.31,5.69,1057.6,779.32,14,20.9187,0.850238
212.07,0.0,121.62,180.31,5.69,1057.6,779.32,56,34.2049,0.850238
229.97,0.0,118.31,195.47,4.63,1029.4,758.59,3,10.0319,0.84998
229.97,0.0,118.31,195.47,4.63,1029.4,758.59,28,24.4833,0.84998
229.97,0.0,118.31,195.47,4.63,1029.4,758.59,100,35.3425,0.84998
190.34,0.0,125.18,161.85,9.88,1088.1,802.59,14,22.7182,0.85032
190.34,0.0,125.18,161.85,9.88,1088.1,802.59,56,38.5624,0.85032
166.09,0.0,163.27,176.46,4.49,1058.6,780.09,3,10.7627,1.06244
166.09,0.0,163.27,176.46,4.49,1058.6,780.09,28,21.5392,1.06244
166.09,0.0,163.27,176.46,4.49,1058.6,780.09,100,33.543,1.06244
213.72,98.05,24.51,181.71,6.86,1065.8,785.38,14,30.3852,0.850225
213.72,98.05,24.51,181.71,6.86,1065.8,785.38,56,50.773,0.850225
213.76,98.06,24.52,181.74,6.65,1066.0,785.52,3,13.1828,0.850206
213.76,98.06,24.52,181.74,6.65,1066.0,785.52,28,40.2309,0.850206
213.76,98.06,24.52,181.74,6.65,1066.0,785.52,100,49.9732,0.850206
229.68,0.0,118.16,195.23,6.13,1028.1,757.63,14,22.3183,0.850009
229.68,0.0,118.16,195.23,6.13,1028.1,757.63,56,31.3505,0.850009
238.05,0.0,94.11,186.66,7.0,949.91,847.01,3,19.9328,0.784121
238.05,0.0,94.11,186.66,7.0,949.91,847.01,28,30.2335,0.784121
238.05,0.0,94.11,186.66,7.0,949.91,847.01,100,44.2988,0.784121
250.0,0.0,95.69,187.42,5.53,956.86,861.17,14,24.9177,0.74968
250.0,0.0,95.69,187.42,5.53,956.86,861.17,56,38.328,0.74968
212.52,0.0,100.37,159.32,8.71,1007.8,903.59,3,13.5413,0.749671
212.52,0.0,100.37,159.32,8.71,1007.8,903.59,28,31.6401,0.749671
212.52,0.0,100.37,159.32,8.71,1007.8,903.59,100,42.9199,0.749671
212.57,0.0,100.39,159.35,10.37,1003.8,903.79,14,25.3727,0.749635
212.57,0.0,100.39,159.35,10.37,1003.8,903.79,56,44.3954,0.749635
212.0,0.0,124.78,159.0,7.84,1085.4,799.54,3,19.5191,0.75
212.0,0.0,124.78,159.0,7.84,1085.4,799.54,28,38.5003,0.75
212.0,0.0,124.78,159.0,7.84,1085.4,799.54,100,47.8152,0.75
231.75,0.0,121.62,173.96,6.72,1056.4,778.45,14,26.7724,0.750636
231.75,0.0,121.62,173.96,6.72,1056.4,778.45,56,42.6992,0.750636
251.37,0.0,118.27,188.45,5.75,1028.4,757.73,3,17.2231,0.749692
251.37,0.0,118.27,188.45,5.75,1028.4,757.73,28,29.6544,0.749692
251.37,0.0,118.27,188.45,5.75,1028.4,757.73,100,43.5818,0.749692
251.37,0.0,118.27,188.45,6.35,1028.4,757.73,14,24.4281,0.749692
251.37,0.0,118.27,188.45,6.35,1028.4,757.73,56,36.6388,0.749692
181.38,0.0,167.01,169.59,7.56,1055.6,777.8,3,13.624,0.934998
181.38,0.0,167.01,169.59,7.56,1055.6,777.8,28,27.7721,0.934998
181.38,0.0,167.01,169.59,7.56,1055.6,777.8,100,45.3675,0.934998
182.04,45.21,121.97,170.21,8.19,1059.4,780.65,14,21.5048,0.935014
182.04,45.21,121.97,170.21,8.19,1059.4,780.65,56,43.499,0.935014
168.88,42.22,124.25,158.33,10.83,1080.8,796.15,3,7.39808,0.93753
168.88,42.22,124.25,158.33,10.83,1080.8,796.15,28,31.1161,0.93753
168.88,42.22,124.25,158.33,10.83,1080.8,796.15,100,48.153,0.93753
290.35,0.0,96.18,168.08,9.41,961.18,865.0,14,34.6737,0.578888
290.35,0.0,96.18,168.08,9.41,961.18,865.0,56,45.0848,0.578888
277.05,0.0,97.39,160.6,11.83,973.9,875.61,3,23.1388,0.579679
277.05,0.0,97.39,160.6,11.83,973.9,875.61,28,48.284,0.579679
277.05,0.0,97.39,160.6,11.83,973.9,875.61,100,55.6407,0.579679
295.71,0.0,95.64,171.54,8.87,955.14,859.2,14,35.2322,0.580095
295.71,0.0,95.64,171.54,8.87,955.14,859.2,56,48.7184,0.580095
251.81,0.0,99.94,146.14,12.35,1006.0,899.76,3,21.0221,0.580358
251.81,0.0,99.94,146.14,12.35,1006.0,899.76,28,33.9429,0.580358
251.81,0.0,99.94,146.14,12.35,1006.0,899.76,100,45.3675,0.580358
249.1,0.0,98.75,158.11,12.8,987.76,889.01,14,28.6822,0.634725
249.1,0.0,98.75,158.11,12.8,987.76,889.01,56,42.0305,0.634725
252.31,0.0,98.75,146.25,14.17,987.76,889.01,3,21.7805,0.579644
252.31,0.0,98.75,146.25,14.17,987.76,889.01,28,50.6006,0.579644
252.31,0.0,98.75,146.25,14.17,987.76,889.01,100,60.9497,0.579644
246.83,0.0,125.08,143.3,11.99,1086.8,800.89,14,42.2166,0.580562
246.83,0.0,125.08,143.3,11.99,1086.8,800.89,56,60.3223,0.580562
275.07,0.0,121.35,159.48,9.9,1053.6,777.5,3,23.8007,0.57978
275.07,0.0,121.35,159.48,9.9,1053.6,777.5,28,51.3315,0.57978
275.07,0.0,121.35,159.48,9.9,1053.6,777.5,100,58.60546,0.57978
297.16,0.0,117.54,174.8,9.52,1022.8,753.45,14,36.9904,0.588235
297.16,0.0,117.54,174.8,9.52,1022.8,753.45,56,51.9589,0.588235
213.74,0.0,174.74,154.79,10.16,1053.5,776.35,3,17.5747,0.724198
213.74,0.0,174.74,154.79,10.16,1053.5,776.35,28,40.1482,0.724198
213.74,0.0,174.74,154.79,10.16,1053.5,776.35,100,50.0766,0.724198
213.5,0.0,174.24,154.61,11.66,1052.3,775.48,14,33.7016,0.724169
213.5,0.0,174.24,154.61,11.66,1052.3,775.48,56,51.4349,0.724169
277.19,97.82,24.46,160.7,11.19,1061.7,782.46,3,30.4473,0.579747
277.19,97.82,24.46,160.7,11.19,1061.7,782.46,28,63.1422,0.579747
277.19,97.82,24.46,160.7,11.19,1061.7,782.46,100,66.9481,0.579747
218.23,54.64,123.78,140.75,11.91,1075.7,792.67,14,35.9562,0.644962
218.23,54.64,123.78,140.75,11.91,1075.7,792.67,56,61.9908,0.644962
214.9,53.8,121.89,155.63,9.61,1014.3,780.58,3,18.016,0.724197
214.9,53.8,121.89,155.63,9.61,1014.3,780.58,28,52.2002,0.724197
214.9,53.8,121.89,155.63,9.61,1014.3,780.58,100,56.6336,0.724197
218.85,0.0,124.13,158.49,11.33,1078.7,794.91,14,26.0484,0.724195
218.85,0.0,124.13,158.49,11.33,1078.7,794.91,56,37.2662,0.724195
376.0,0.0,0.0,214.6,0.0,1003.5,762.36,3,16.2785,0.570745
376.0,0.0,0.0,214.6,0.0,1003.5,762.36,28,31.971,0.570745
376.0,0.0,0.0,214.6,0.0,1003.5,762.36,100,43.0578,0.570745
475.0,0.0,59.0,142.0,1.9,1098.0,641.0,28,57.2265,0.298947
516.0,0.0,0.0,162.0,8.2,801.0,802.0,28,41.36856,0.313953
528.0,0.0,0.0,185.0,6.86,920.0,720.0,28,56.8335,0.350379
385.0,0.0,136.0,158.0,20.0,903.0,768.0,28,55.5511,0.41039
450.1,50.0,0.0,200.0,3.0,1124.4,613.2,28,39.376,0.444346
333.0,17.5,163.0,167.0,17.9,996.0,652.0,28,47.2774,0.501502
405.0,0.0,0.0,175.0,0.0,1120.0,695.0,28,52.3036,0.432099
516.0,0.0,0.0,162.0,8.26,801.0,802.0,28,41.36856,0.313953
160.0,128.0,122.0,182.0,6.4,824.0,879.0,28,39.3967,1.1375
250.0,180.0,95.0,159.0,9.45,860.0,800.0,28,67.8651,0.636
285.0,190.0,0.0,163.0,7.6,1031.0,685.0,28,53.5792,0.57193
275.0,180.0,120.0,162.0,10.35,830.0,765.0,28,76.2354,0.589091
165.0,0.02,143.57,163.81,0.0,1005.6,900.9,3,14.3963,0.992788
178.03,129.8,118.6,179.94,3.57,1007.3,746.8,3,20.7256,1.01073
172.38,13.61,172.37,156.76,4.14,1006.3,856.4,3,21.291,0.909386
167.0,75.4,167.0,164.03,7.91,1007.3,770.1,3,15.5201,0.982216
190.34,0.0,125.18,166.61,9.88,1079.0,798.9,3,12.5485,0.875328
213.5,0.0,174.24,159.21,11.66,1043.6,771.9,3,15.6097,0.745714
251.37,0.0,118.27,192.94,5.75,1043.6,754.3,3,11.9831,0.767554
165.0,128.5,132.1,175.06,8.08,1005.8,746.6,14,33.088,1.06097
167.35,129.9,128.62,175.46,7.79,1006.3,746.6,14,31.8124,1.04846
173.54,50.05,173.53,164.77,6.47,1006.2,793.5,14,33.0052,0.949464
173.81,93.37,159.9,172.34,9.73,1007.2,746.6,14,29.5509,0.991542
250.0,0.0,95.69,191.84,5.33,948.9,857.2,14,24.6557,0.76736
194.68,0.0,100.52,170.17,7.48,998.0,901.8,14,24.2833,0.874101
165.0,0.02,143.57,163.81,0.0,1005.6,900.9,28,26.2001,0.992788
178.03,129.8,118.6,179.94,3.57,1007.3,746.8,28,39.1622,1.01073
172.38,13.61,172.37,156.76,4.14,1006.3,856.4,28,33.6878,0.909386
167.0,75.4,167.0,164.03,7.91,1007.3,770.1,28,41.4099,0.982216
190.34,0.0,125.18,166.61,9.88,1079.0,798.9,28,24.8487,0.875328
213.5,0.0,174.24,159.21,11.66,1043.6,771.9,28,44.6367,0.745714
251.37,0.0,118.27,192.94,5.75,1043.6,754.3,28,33.2741,0.767554
165.0,128.5,132.1,175.06,8.08,1005.8,746.6,56,53.724,1.06097
167.35,129.9,128.62,175.46,7.79,1006.3,746.6,56,51.7245,1.04846
173.54,50.05,173.53,164.77,6.47,1006.2,793.5,56,53.7722,0.949464
173.81,93.37,159.9,172.34,9.73,1007.2,746.6,56,48.9873,0.991542
250.0,0.0,95.69,191.84,5.33,948.9,857.2,56,39.64487,0.76736
194.68,0.0,100.52,170.17,7.48,998.0,901.8,56,43.3887,0.874101
165.0,0.02,143.57,163.81,0.0,1005.6,900.9,100,37.9557,0.992788
178.03,129.8,118.6,179.94,3.57,1007.3,746.8,100,49.9939,1.01073
172.38,13.61,172.37,156.76,4.14,1006.3,856.4,100,37.6799,0.909386
167.0,75.4,167.0,164.03,7.91,1007.3,770.1,100,56.8128,0.982216
190.34,0.0,125.18,166.61,9.88,1079.0,798.9,100,33.5637,0.875328
213.5,0.0,174.24,159.21,11.66,1043.6,771.9,100,52.9587,0.745714
251.37,0.0,118.27,192.94,5.75,1043.6,754.3,100,40.1482,0.767554
446.0,24.0,79.0,162.0,11.64,967.0,712.0,28,44.4229,0.363229
446.0,24.0,79.0,162.0,10.3,967.0,712.0,28,53.3861,0.363229
446.0,24.0,79.0,162.0,11.64,967.0,712.0,3,25.0211,0.363229
446.0,24.0,79.0,162.0,11.61,967.0,712.0,7,52.0072,0.363229
446.0,24.0,79.0,162.0,11.64,967.0,712.0,7,39.3001,0.363229
446.0,24.0,79.0,162.0,11.64,967.0,712.0,56,56.144,0.363229
446.0,24.0,79.0,162.0,10.3,967.0,712.0,56,54.7651,0.363229
387.0,20.0,94.0,157.0,13.93,938.0,845.0,28,46.6844,0.405685
387.0,20.0,94.0,157.0,14.32,938.0,845.0,3,22.7527,0.405685
387.0,20.0,94.0,157.0,11.61,938.0,845.0,3,34.7703,0.405685
387.0,20.0,94.0,157.0,13.93,938.0,845.0,7,45.8984,0.405685
387.0,20.0,94.0,157.0,14.32,938.0,845.0,56,56.3371,0.405685
387.0,20.0,94.0,157.0,11.61,938.0,845.0,56,61.4599,0.405685
355.0,19.0,97.0,145.0,12.25,967.0,871.0,28,55.4546,0.408451
491.0,26.0,123.0,201.0,3.93,822.0,699.0,28,57.916,0.409369
491.0,26.0,123.0,210.0,3.93,882.0,699.0,7,33.4888,0.427699
491.0,26.0,123.0,201.0,3.93,822.0,699.0,3,29.549,0.409369
491.0,26.0,123.0,201.0,3.93,822.0,699.0,56,61.8558,0.409369
424.0,22.0,132.0,178.0,8.48,882.0,750.0,3,32.0114,0.419811
424.0,22.0,132.0,178.0,8.48,822.0,750.0,7,39.0046,0.419811
424.0,22.0,132.0,168.0,8.92,822.0,750.0,3,32.1099,0.396226
424.0,22.0,132.0,168.0,8.92,822.0,750.0,56,74.3649,0.396226
202.0,11.0,141.0,206.0,1.72,942.0,801.0,3,9.84966,1.0198
202.0,11.0,141.0,206.0,1.72,942.0,801.0,56,23.2452,1.0198
284.0,15.0,141.0,179.0,5.46,842.0,801.0,3,13.3955,0.630282
284.0,15.0,141.0,179.0,5.46,842.0,801.0,56,44.5205,0.630282
359.0,19.0,141.0,154.0,10.91,942.0,801.0,28,59.4949,0.428969
359.0,19.0,141.0,154.0,10.91,942.0,801.0,3,23.6392,0.428969
359.0,19.0,141.0,154.0,10.91,942.0,801.0,7,38.6107,0.428969
359.0,19.0,141.0,154.0,10.91,942.0,801.0,56,66.7807,0.428969
289.0,0.0,0.0,192.0,0.0,913.2,895.3,90,32.0682,0.66436
393.0,0.0,0.0,192.0,0.0,940.6,785.6,3,19.1991,0.48855
393.0,0.0,0.0,192.0,0.0,940.6,785.6,28,39.6049,0.48855
480.0,0.0,0.0,192.0,0.0,936.2,712.2,7,34.5696,0.4
480.0,0.0,0.0,192.0,0.0,936.2,712.2,3,24.4047,0.4
255.0,0.0,0.0,192.0,0.0,889.8,945.0,90,21.8591,0.752941
289.0,0.0,0.0,192.0,0.0,913.2,895.3,7,14.5969,0.66436
333.0,0.0,0.0,192.0,0.0,931.2,842.6,28,31.9669,0.576577
289.0,0.0,0.0,192.0,0.0,913.2,895.3,28,25.5734,0.66436
393.0,0.0,0.0,192.0,0.0,940.6,785.6,7,27.7424,0.48855
158.8,238.2,0.0,185.7,0.0,1040.6,734.3,7,9.6175,1.1694
181.9,272.8,0.0,185.7,0.0,1012.4,714.3,28,27.9355,1.02089
255.5,170.3,0.0,185.7,0.0,1026.6,724.3,7,17.2362,0.72681
220.8,147.2,0.0,185.7,0.0,1055.0,744.3,28,25.745,0.841033
382.5,0.0,0.0,185.7,0.0,1047.8,739.3,7,24.0655,0.48549
158.8,238.2,0.0,185.7,0.0,1040.6,734.3,28,21.0662,1.1694
255.5,170.3,0.0,185.7,0.0,1026.6,724.3,28,32.0517,0.72681
397.0,0.0,0.0,185.7,0.0,1040.6,734.3,7,25.4479,0.467758
295.8,0.0,0.0,185.7,0.0,1091.4,769.3,28,25.2169,0.627789
220.8,147.2,0.0,185.7,0.0,1055.0,744.3,7,13.089,0.841033
135.7,203.5,0.0,185.7,0.0,1076.2,759.3,7,7.50701,1.36846
339.2,0.0,0.0,185.7,0.0,1069.2,754.3,7,21.1793,0.547465
193.5,290.2,0.0,185.7,0.0,998.2,704.3,7,17.2004,0.95969
290.2,193.5,0.0,185.7,0.0,998.2,704.3,7,21.8591,0.639904
170.3,155.5,0.0,185.7,0.0,1026.6,724.3,28,25.7264,1.09043
228.0,342.1,0.0,185.7,0.0,955.8,674.3,7,21.9171,0.814474
381.4,0.0,0.0,185.7,0.0,1104.6,784.3,7,14.541,0.48689
186.2,124.1,0.0,185.7,0.0,1083.4,764.3,7,7.99585,0.997315
238.1,0.0,0.0,185.7,0.0,1118.8,789.3,7,10.3359,0.779924
382.5,0.0,0.0,185.7,0.0,1047.8,739.3,28,37.4379,0.48549
316.1,210.7,0.0,185.7,0.0,977.0,689.3,7,24.4378,0.587472
170.3,155.5,0.0,185.7,0.0,1026.6,724.3,7,10.7303,1.09043
339.0,0.0,0.0,197.0,0.0,968.0,781.0,3,13.2241,0.581121
339.0,0.0,0.0,197.0,0.0,968.0,781.0,14,27.0412,0.581121
339.0,0.0,0.0,197.0,0.0,968.0,781.0,90,35.1702,0.581121
236.0,0.0,0.0,194.0,0.0,968.0,885.0,14,12.838,0.822034
236.0,0.0,0.0,194.0,0.0,968.0,885.0,90,21.946,0.822034
277.0,0.0,0.0,191.0,0.0,968.0,856.0,28,25.9657,0.689531
277.0,0.0,0.0,191.0,0.0,968.0,856.0,90,31.2539,0.689531
254.0,0.0,0.0,198.0,0.0,968.0,863.0,90,26.9447,0.779528
307.0,0.0,0.0,193.0,0.0,968.0,812.0,28,27.5308,0.628664
236.0,0.0,0.0,193.0,0.0,968.0,885.0,7,9.99051,0.817797
200.0,0.0,0.0,180.0,0.0,1125.0,845.0,28,12.2451,0.9
225.0,0.0,0.0,181.0,0.0,1113.0,833.0,28,17.3403,0.804444
325.0,0.0,0.0,184.0,0.0,1063.0,783.0,28,30.5714,0.566154
275.0,0.0,0.0,183.0,0.0,1088.0,808.0,28,24.4971,0.665455
300.0,0.0,0.0,184.0,0.0,1075.0,795.0,28,26.8482,0.613333
375.0,0.0,0.0,186.0,0.0,1038.0,758.0,28,38.2108,0.496
400.0,0.0,0.0,187.0,0.0,1025.0,745.0,7,30.1439,0.4675
250.0,0.0,0.0,182.0,0.0,1100.0,820.0,28,20.8704,0.728
350.0,0.0,0.0,186.0,0.0,1050.0,770.0,28,34.2945,0.531429
250.2,166.8,0.0,203.5,0.0,977.6,694.1,90,47.7145,0.813349
141.3,212.0,0.0,203.5,0.0,971.8,748.5,28,29.8922,1.4402
122.6,183.9,0.0,203.5,0.0,958.2,800.1,90,33.1921,1.65987
102.0,153.0,0.0,192.0,0.0,887.0,942.0,3,4.56502,1.88235
122.6,183.9,0.0,203.5,0.0,958.2,800.1,28,24.2909,1.65987
200.0,133.0,0.0,192.0,0.0,965.4,806.2,3,11.4143,0.96
305.3,203.5,0.0,203.5,0.0,965.4,631.0,7,25.894,0.666557
116.0,173.0,0.0,192.0,0.0,909.8,891.9,90,31.0237,1.65517
157.0,236.0,0.0,192.0,0.0,935.4,781.2,28,33.6644,1.22293
250.2,166.8,0.0,203.5,0.0,977.6,694.1,7,19.3501,0.813349
192.0,288.0,0.0,192.0,0.0,929.8,716.1,3,12.7884,1.0
153.0,102.0,0.0,192.0,0.0,888.0,943.1,3,4.78221,1.2549
305.3,203.5,0.0,203.5,0.0,965.4,631.0,28,43.377,0.666557
173.0,116.0,0.0,192.0,0.0,946.8,856.8,3,6.94095,1.10983
236.0,157.0,0.0,192.0,0.0,972.6,749.1,3,13.5654,0.813559
166.8,250.2,0.0,203.5,0.0,975.6,692.6,7,15.7483,1.22002
288.0,192.0,0.0,192.0,0.0,932.0,717.8,28,38.8044,0.666667
102.0,153.0,0.0,192.0,0.0,887.0,942.0,28,17.2755,1.88235
183.9,122.6,0.0,203.5,0.0,959.2,800.0,28,24.0462,1.10658
192.0,288.0,0.0,192.0,0.0,929.8,716.1,90,50.7323,1.0
305.3,203.5,0.0,203.5,0.0,965.4,631.0,3,14.1439,0.666557
108.3,162.4,0.0,203.5,0.0,938.2,849.0,3,2.33181,1.87904
288.0,192.0,0.0,192.0,0.0,932.0,717.8,7,23.5235,0.666667
212.0,141.3,0.0,203.5,0.0,973.4,750.0,90,39.7,0.959906
236.0,157.0,0.0,192.0,0.0,972.6,749.1,28,32.8846,0.813559
183.9,122.6,0.0,203.5,0.0,959.2,800.0,7,10.7875,1.10658
203.5,305.3,0.0,203.5,0.0,963.4,630.0,28,41.6843,1.0
133.0,200.0,0.0,192.0,0.0,927.4,839.2,3,6.88373,1.44361
200.0,133.0,0.0,192.0,0.0,965.4,806.2,7,17.1659,0.96
250.2,166.8,0.0,203.5,0.0,977.6,694.1,3,9.73126,0.813349
153.0,102.0,0.0,192.0,0.0,888.0,943.1,90,26.3228,1.2549
116.0,173.0,0.0,192.0,0.0,909.8,891.9,3,6.28044,1.65517
250.2,166.8,0.0,203.5,0.0,977.6,694.1,28,36.9642,0.813349
192.0,288.0,0.0,192.0,0.0,929.8,716.1,7,21.4806,1.0
153.0,102.0,0.0,192.0,0.0,888.0,943.1,7,8.37438,1.2549
116.0,173.0,0.0,192.0,0.0,909.8,891.9,7,10.0898,1.65517
122.6,183.9,0.0,203.5,0.0,958.2,800.1,7,10.3546,1.65987
203.5,305.3,0.0,203.5,0.0,963.4,630.0,90,51.8638,1.0
310.0,0.0,0.0,192.0,0.0,1012.0,830.0,7,17.2438,0.619355
310.0,0.0,0.0,192.0,0.0,1012.0,830.0,90,35.7631,0.619355
331.0,0.0,0.0,192.0,0.0,1025.0,821.0,3,14.3066,0.58006
331.0,0.0,0.0,192.0,0.0,1025.0,821.0,28,31.7435,0.58006
331.0,0.0,0.0,192.0,0.0,1025.0,821.0,120,39.3829,0.58006
349.0,0.0,0.0,192.0,0.0,1056.0,809.0,7,9.01145,0.550143
349.0,0.0,0.0,192.0,0.0,1056.0,809.0,90,40.6584,0.550143
238.0,0.0,0.0,186.0,0.0,1119.0,789.0,7,12.052,0.781513
296.0,0.0,0.0,186.0,0.0,1090.0,769.0,7,18.9123,0.628378
297.0,0.0,0.0,186.0,0.0,1040.0,734.0,7,30.9575,0.626263
480.0,0.0,0.0,192.0,0.0,936.0,721.0,90,54.2756,0.4
281.0,0.0,0.0,186.0,0.0,1104.0,774.0,7,14.4997,0.661922
500.0,0.0,0.0,200.0,0.0,1125.0,613.0,1,12.6381,0.4
500.0,0.0,0.0,200.0,0.0,1125.0,613.0,7,33.2121,0.4
500.0,0.0,0.0,200.0,0.0,1125.0,613.0,28,44.092,0.4
540.0,0.0,0.0,173.0,0.0,1125.0,613.0,14,59.7638,0.32037
540.0,0.0,0.0,173.0,0.0,1125.0,613.0,90,69.6578,0.32037
350.0,0.0,0.0,203.0,0.0,974.0,775.0,14,22.5321,0.58
350.0,0.0,0.0,203.0,0.0,974.0,775.0,56,29.9784,0.58
385.0,0.0,0.0,186.0,0.0,966.0,763.0,1,6.26734,0.483117
385.0,0.0,0.0,186.0,0.0,966.0,763.0,7,23.2216,0.483117
385.0,0.0,0.0,186.0,0.0,966.0,763.0,28,31.3505,0.483117
331.0,0.0,0.0,192.0,0.0,978.0,825.0,3,13.5206,0.58006
382.0,0.0,0.0,186.0,0.0,1047.0,739.0,28,37.4248,0.486911
281.0,0.0,0.0,186.0,0.0,1104.0,774.0,28,22.4355,0.661922
339.0,0.0,0.0,185.0,0.0,1069.0,754.0,28,31.84,0.545723
295.0,0.0,0.0,185.0,0.0,1069.0,769.0,28,25.1797,0.627119
296.0,0.0,0.0,192.0,0.0,1085.0,765.0,7,14.2032,0.648649
296.0,0.0,0.0,192.0,0.0,1085.0,765.0,90,29.3924,0.648649
331.0,0.0,0.0,192.0,0.0,978.0,825.0,7,16.2647,0.58006
331.0,0.0,0.0,192.0,0.0,978.0,825.0,90,37.2317,0.58006
349.0,0.0,0.0,192.0,0.0,1047.0,806.0,28,32.7225,0.550143
302.0,0.0,0.0,203.0,0.0,974.0,817.0,14,18.1263,0.672185
540.0,0.0,0.0,173.0,0.0,1125.0,613.0,3,41.6375,0.32037
252.0,0.0,0.0,185.0,0.0,1111.0,784.0,28,19.6914,0.734127
393.0,0.0,0.0,192.0,0.0,940.0,758.0,3,19.1054,0.48855
393.0,0.0,0.0,192.0,0.0,940.0,758.0,90,48.7942,0.48855
382.0,0.0,0.0,185.0,0.0,1047.0,739.0,28,37.4248,0.484293
310.0,0.0,0.0,192.0,0.0,970.0,850.0,7,14.9892,0.619355
310.0,0.0,0.0,192.0,0.0,970.0,850.0,90,34.6806,0.619355
525.0,0.0,0.0,189.0,0.0,1125.0,613.0,7,42.4235,0.36
525.0,0.0,0.0,189.0,0.0,1125.0,613.0,28,55.9441,0.36
322.0,0.0,0.0,203.0,0.0,974.0,800.0,14,20.7739,0.630435
302.0,0.0,0.0,203.0,0.0,974.0,817.0,28,21.753,0.672185
480.0,0.0,0.0,192.0,0.0,936.0,721.0,3,24.3937,0.4
522.0,0.0,0.0,146.0,0.0,896.0,896.0,28,74.9874,0.279693
162.0,190.0,148.0,179.0,19.0,838.0,741.0,28,33.7567,1.10494
147.0,115.0,89.0,202.0,9.0,860.0,829.0,28,19.9879,1.37415
310.0,143.0,111.0,168.0,22.0,914.0,651.0,28,33.6878,0.541935
304.0,140.0,0.0,214.0,6.0,895.0,722.0,28,33.4189,0.703947
159.0,149.0,116.0,175.0,15.0,953.0,720.0,28,27.6756,1.10063
310.0,143.0,0.0,168.0,10.0,914.0,804.0,28,45.2986,0.541935
151.0,0.0,184.0,167.0,12.0,991.0,772.0,28,15.5684,1.10596
298.0,137.0,107.0,201.0,6.0,878.0,655.0,28,53.524,0.674497
366.0,187.0,0.0,191.0,7.0,824.0,757.0,28,65.907,0.521858
252.0,97.0,76.0,194.0,8.0,835.0,821.0,28,33.3982,0.769841
156.0,243.0,0.0,180.0,11.0,1022.0,698.0,28,37.3627,1.15385
298.0,0.0,107.0,186.0,6.0,879.0,815.0,28,42.6372,0.624161
287.0,121.0,94.0,188.0,9.0,904.0,696.0,28,41.9408,0.655052
356.0,0.0,142.0,193.0,11.0,801.0,778.0,28,40.8652,0.542135
322.0,149.0,0.0,186.0,8.0,951.0,709.0,28,52.4209,0.57764
314.0,0.0,113.0,170.0,10.0,925.0,783.0,28,38.459,0.541401
288.0,121.0,0.0,177.0,7.0,908.0,829.0,28,42.1339,0.614583
265.0,111.0,86.0,195.0,6.0,833.0,790.0,28,41.5409,0.735849
166.0,260.0,0.0,183.0,13.0,859.0,827.0,28,37.9143,1.10241
322.0,0.0,116.0,196.0,10.0,818.0,813.0,28,31.1781,0.608696
159.0,187.0,0.0,176.0,11.0,990.0,789.0,28,32.7639,1.10692
313.0,0.0,113.0,178.0,8.0,1002.0,689.0,28,36.8042,0.56869
146.0,230.0,0.0,202.0,3.0,827.0,872.0,28,33.0604,1.38356
133.0,210.0,0.0,196.0,3.0,949.0,795.0,28,31.0264,1.47368
152.0,0.0,112.0,184.0,8.0,992.0,816.0,28,12.1761,1.21053
140.0,133.0,103.0,200.0,7.0,916.0,753.0,28,36.4388,1.42857
300.0,0.0,120.0,212.0,10.0,878.0,728.0,28,23.8352,0.706667
148.0,0.0,137.0,158.0,16.0,1002.0,830.0,28,17.954,1.06757
153.0,145.0,0.0,178.0,8.0,1000.0,822.0,28,19.0089,1.1634
158.0,0.0,195.0,220.0,11.0,898.0,713.0,28,8.53571,1.39241
273.0,0.0,90.0,199.0,11.0,931.0,762.0,28,32.2399,0.728938
143.0,169.0,143.0,191.0,8.0,967.0,643.0,28,29.7233,1.33566
313.0,161.0,0.0,178.0,10.0,917.0,759.0,28,52.4415,0.56869
336.0,0.0,0.0,182.0,3.0,986.0,817.0,28,44.8642,0.541667
150.0,237.0,0.0,174.0,12.0,1069.0,675.0,28,37.4317,1.16
331.0,170.0,0.0,195.0,8.0,811.0,802.0,28,56.6129,0.589124
155.0,183.0,0.0,193.0,9.0,877.0,868.0,28,23.7869,1.24516
266.0,112.0,87.0,178.0,10.0,910.0,745.0,28,39.4173,0.669173
146.0,173.0,0.0,182.0,3.0,986.0,817.0,28,23.7387,1.24658
148.0,0.0,182.0,181.0,15.0,839.0,884.0,28,15.5201,1.22297
298.0,0.0,107.0,164.0,13.0,953.0,784.0,28,35.8596,0.550336
155.0,184.0,143.0,194.0,9.0,880.0,699.0,28,28.9856,1.25161
148.0,175.0,0.0,171.0,2.0,1000.0,828.0,28,26.9171,1.15541
313.0,0.0,0.0,178.0,8.0,1000.0,822.0,28,25.0969,0.56869
155.0,0.0,143.0,193.0,9.0,877.0,868.0,28,9.7354,1.24516
162.0,207.0,172.0,216.0,10.0,822.0,638.0,28,39.8448,1.33333
164.0,163.0,128.0,197.0,8.0,961.0,641.0,28,27.2343,1.20122
157.0,214.0,152.0,200.0,9.0,819.0,704.0,28,33.0535,1.27389
135.0,105.0,193.0,196.0,6.0,965.0,643.0,28,21.9115,1.45185
144.0,15.0,195.0,176.0,6.0,1021.0,709.0,28,15.3408,1.22222
167.0,187.0,195.0,185.0,7.0,898.0,636.0,28,23.8903,1.10778
156.0,178.0,187.0,221.0,7.0,854.0,614.0,28,29.413,1.41667
154.8,183.4,0.0,193.3,9.1,1047.4,696.7,28,18.2877,1.24871
296.0,0.0,106.7,221.4,10.5,819.2,778.4,28,31.4201,0.747973
313.3,145.0,0.0,178.5,8.0,867.2,824.0,28,40.9252,0.569741
153.1,145.0,113.0,178.5,8.0,1001.9,688.7,28,25.5596,1.1659
149.5,236.0,0.0,175.8,12.6,846.8,892.7,28,32.9638,1.17592
153.1,145.0,113.0,178.5,8.0,867.2,824.0,28,26.2332,1.1659
326.5,0.0,137.9,199.0,10.8,801.1,792.5,28,38.6307,0.609495
261.9,110.5,86.1,195.4,5.0,895.2,732.6,28,33.7188,0.746086
150.7,0.0,185.3,166.7,15.6,1074.5,678.0,28,13.4613,1.10617
149.0,117.6,91.7,182.9,7.1,953.4,780.3,28,23.5242,1.22752
259.9,100.6,78.4,170.6,10.4,935.7,762.9,28,49.7733,0.656406
284.0,119.7,0.0,168.3,7.2,970.4,794.2,28,40.9349,0.592606
144.8,0.0,133.6,180.8,11.1,979.5,811.5,28,13.2021,1.24862
143.7,170.2,132.6,191.6,8.5,814.1,805.3,28,29.8709,1.33333
154.8,0.0,142.8,193.3,9.1,1047.4,696.7,28,12.4595,1.24871
134.7,0.0,165.7,180.2,10.0,961.0,804.9,28,13.2938,1.33779
314.0,145.3,113.2,178.9,8.0,869.1,690.2,28,46.2342,0.569745
145.7,172.6,0.0,181.9,3.4,985.8,816.8,28,23.7442,1.24846
148.1,0.0,182.1,181.4,15.0,838.9,884.3,28,15.5263,1.22485
298.1,0.0,107.5,163.6,12.8,953.2,784.0,28,35.8659,0.548809
155.2,183.9,143.2,193.8,9.2,879.6,698.5,28,28.9911,1.24871
147.8,175.1,0.0,171.2,2.2,1000.0,828.5,28,26.9227,1.15832
312.7,0.0,0.0,178.1,8.0,999.7,822.2,28,25.1038,0.569555
154.8,0.0,142.8,193.3,9.1,877.2,867.7,28,9.73816,1.24871
272.8,105.1,81.8,209.7,9.0,904.0,679.7,28,37.171,0.768695
153.6,144.2,112.3,220.1,10.1,923.2,657.9,28,16.504,1.43294
151.8,178.1,138.7,167.5,18.3,944.0,694.6,28,36.3499,1.10343
143.6,0.0,174.9,158.4,17.9,942.7,844.5,28,15.4236,1.10306
374.3,0.0,0.0,190.2,6.7,1013.2,730.4,28,39.0561,0.508149
152.6,238.7,0.0,200.0,6.3,1001.8,683.9,28,26.8599,1.31062
304.8,0.0,99.6,196.0,9.8,959.4,705.2,28,30.1232,0.643045
141.9,166.6,129.7,173.5,10.9,882.6,785.3,28,44.6119,1.22269
321.3,164.2,0.0,190.5,4.6,870.0,774.0,28,57.2182,0.592904
279.8,128.9,100.4,172.4,9.5,825.1,804.9,28,52.827,0.616154
164.6,0.0,150.4,181.6,11.7,1023.3,728.9,28,18.0339,1.10328
160.2,188.0,146.4,203.2,11.3,828.7,709.7,28,35.3143,1.26841
317.9,0.0,126.5,209.7,5.7,860.5,736.6,28,40.062,0.659641
325.6,166.4,0.0,174.0,8.9,881.6,790.0,28,61.2358,0.534398
132.0,206.5,160.9,178.9,5.5,866.9,735.6,28,33.3065,1.3553
164.2,0.0,200.1,181.2,12.6,849.3,846.0,28,15.0913,1.10353
321.4,0.0,127.9,182.5,11.5,870.1,779.7,28,37.2655,0.567828
298.2,0.0,107.0,209.7,11.1,879.6,744.2,28,31.8752,0.703219
159.8,250.0,0.0,168.4,12.2,1049.3,688.2,28,39.456,1.05382
276.4,116.0,90.3,179.6,8.9,870.1,768.3,28,44.2844,0.649783
148.5,139.4,108.6,192.7,6.1,892.4,780.0,28,23.6966,1.29764
260.9,100.5,78.3,200.6,8.6,864.5,761.5,28,32.4012,0.768877